,wavelength
0,650
1,651
2,652
3,653
4,654
5,655
6,656
7,657
8,658
9,659
10,660
11,661
12,662
13,663
14,664
15,665
16,666
17,667
18,668
19,669
20,670
21,671
22,672
23,673
24,674
25,675
26,676
27,677
28,678
29,679
30,680
31,681
32,682
33,683
34,684
35,685
36,686
37,687
38,688
39,689
40,690
41,691
42,692
43,693
44,694
45,695
46,696
47,697
48,698
49,699
50,700
51,701
52,702
53,703
54,704
55,705
56,706
57,707
58,708
59,709
60,710
61,711
62,712
63,713
64,714
65,715
66,716
67,717
68,718
69,719
70,720
71,721
72,722
73,723
74,724
75,725
76,726
77,727
78,728
79,729
80,730
81,731
82,732
83,733
84,734
85,735
86,736
87,737
88,738
89,739
90,740
91,741
92,742
93,743
94,744
95,745
96,746
97,747
98,748
99,749
100,750
101,751
102,752
103,753
104,754
105,755
106,756
107,757
108,758
109,759
110,760
111,761
112,762
113,763
114,764
115,765
116,766
117,767
118,768
119,769
120,770
121,771
122,772
123,773
124,774
125,775
126,776
127,777
128,778
129,779
130,780
131,781
132,782
133,783
134,784
135,785
136,786
137,787
138,788
139,789
140,790
141,791
142,792
143,793
144,794
145,795
146,796
147,797
148,798
149,799
150,800
151,801
152,802
153,803
154,804
155,805
156,806
157,807
158,808
159,809
160,810
161,811
162,812
163,813
164,814
165,815
166,816
167,817
168,818
169,819
170,820
171,821
172,822
173,823
174,824
175,825
176,826
177,827
178,828
179,829
180,830
181,831
182,832
183,833
184,834
185,835
186,836
187,837
188,838
189,839
190,840
191,841
192,842
193,843
194,844
195,845
196,846
197,847
198,848
199,849
200,850
201,851
202,852
203,853
204,854
205,855
206,856
207,857
208,858
209,859
210,860
211,861
212,862
213,863
214,864
215,865
216,866
217,867
218,868
219,869
220,870
221,871
222,872
223,873
224,874
225,875
226,876
227,877
228,878
229,879
230,880
231,881
232,882
233,883
234,884
235,885
236,886
237,887
238,888
239,889
240,890
241,891
242,892
243,893
244,894
245,895
246,896
247,897
248,898
249,899
250,900
251,901
252,902
253,903
254,904
255,905
256,906
257,907
258,908
259,909
260,910
261,911
262,912
263,913
264,914
265,915
266,916
267,917
268,918
269,919
270,920
271,921
272,922
273,923
274,924
275,925
276,926
277,927
278,928
279,929
280,930
281,931
282,932
283,933
284,934
285,935
286,936
287,937
288,938
289,939
290,940
291,941
292,942
293,943
294,944
295,945
296,946
297,947
298,948
299,949
300,950
301,951
302,952
303,953
304,954
305,955
306,956
307,957
308,958
309,959
310,960
311,961
312,962
313,963
314,964
315,965
316,966
317,967
318,968
319,969
320,970
321,971
322,972
323,973
324,974
325,975
326,976
327,977
328,978
329,979
330,980
331,981
332,982
333,983
334,984
335,985
336,986
337,987
338,988
339,989
340,990
341,991
342,992
343,993
344,994
345,995
346,996
347,997
348,998
349,999
350,1000
